Time_abs/ps, Signal/nA
  1000.000,    -0.126420
  1000.050,    -0.069470
  1000.100,    -0.008046
  1000.150,     0.064275
  1000.200,     0.139661
  1000.250,     0.219095
  1000.300,     0.299788
  1000.350,     0.388336
  1000.400,     0.476504
  1000.450,     0.563926
  1000.500,     0.655049
  1000.550,     0.751175
  1000.600,     0.846352
  1000.650,     0.947155
  1000.700,     1.047633
  1000.750,     1.152442
  1000.800,     1.254328
  1000.850,     1.362673
  1000.900,     1.467689
  1000.950,     1.565727
  1001.000,     1.666129
  1001.050,     1.759955
  1001.100,     1.851386
  1001.150,     1.940722
  1001.200,     2.020884
  1001.250,     2.104288
  1001.300,     2.178756
  1001.350,     2.252753
  1001.400,     2.326071
  1001.450,     2.397680
  1001.500,     2.465732
  1001.550,     2.538154
  1001.600,     2.602322
  1001.650,     2.669694
  1001.700,     2.734790
  1001.750,     2.798284
  1001.800,     2.857538
  1001.850,     2.914085
  1001.900,     2.965527
  1001.950,     3.008039
  1002.000,     3.046140
  1002.050,     3.079927
  1002.100,     3.114335
  1002.150,     3.148464
  1002.200,     3.187384
  1002.250,     3.227562
  1002.300,     3.257538
  1002.350,     3.280182
  1002.400,     3.283508
  1002.450,     3.260823
  1002.500,     3.219519
  1002.550,     3.158993
  1002.600,     3.084689
  1002.650,     3.008479
  1002.700,     2.942906
  1002.750,     2.880346
  1002.800,     2.829048
  1002.850,     2.790747
  1002.900,     2.758529
  1002.950,     2.731989
  1003.000,     2.714931
  1003.050,     2.694659
  1003.100,     2.678586
  1003.150,     2.655778
  1003.200,     2.629496
  1003.250,     2.600267
  1003.300,     2.571618
  1003.350,     2.535634
  1003.400,     2.505585
  1003.450,     2.478528
  1003.500,     2.458585
  1003.550,     2.443245
  1003.600,     2.440041
  1003.650,     2.440851
  1003.700,     2.449972
  1003.750,     2.461924
  1003.800,     2.474430
  1003.850,     2.487523
  1003.900,     2.498481
  1003.950,     2.508878
  1004.000,     2.518296
  1004.050,     2.526330
  1004.100,     2.535089
  1004.150,     2.541510
  1004.200,     2.555066
  1004.250,     2.572373
  1004.300,     2.593071
  1004.350,     2.619817
  1004.400,     2.649983
  1004.450,     2.681914
  1004.500,     2.725662
  1004.550,     2.763032
  1004.600,     2.809359
  1004.650,     2.861273
  1004.700,     2.914056
  1004.750,     2.968414
  1004.800,     3.024444
  1004.850,     3.078739
  1004.900,     3.131719
  1004.950,     3.180601
  1005.000,     3.233199
  1005.050,     3.283118
  1005.100,     3.330039
  1005.150,     3.381775
  1005.200,     3.428975
  1005.250,     3.475488
  1005.300,     3.524386
  1005.350,     3.569012
  1005.400,     3.612162
  1005.450,     3.649007
  1005.500,     3.684994
  1005.550,     3.716372
  1005.600,     3.741910
  1005.650,     3.766573
  1005.700,     3.788553
  1005.750,     3.806413
  1005.800,     3.822714
  1005.850,     3.835824
  1005.900,     3.843717
  1005.950,     3.853415
  1006.000,     3.852090
  1006.050,     3.854276
  1006.100,     3.848560
  1006.150,     3.840866
  1006.200,     3.826493
  1006.250,     3.811851
  1006.300,     3.788038
  1006.350,     3.760979
  1006.400,     3.732778
  1006.450,     3.694192
  1006.500,     3.657136
  1006.550,     3.612214
  1006.600,     3.571287
  1006.650,     3.528673
  1006.700,     3.480768
  1006.750,     3.433326
  1006.800,     3.387927
  1006.850,     3.336173
  1006.900,     3.284960
  1006.950,     3.229980
  1007.000,     3.173679
  1007.050,     3.109496
  1007.100,     3.047805
  1007.150,     2.980659
  1007.200,     2.915260
  1007.250,     2.850910
  1007.300,     2.783486
  1007.350,     2.725763
  1007.400,     2.668076
  1007.450,     2.615712
  1007.500,     2.569373
  1007.550,     2.526429
  1007.600,     2.488174
  1007.650,     2.455082
  1007.700,     2.423570
  1007.750,     2.392345
  1007.800,     2.364039
  1007.850,     2.339199
  1007.900,     2.311821
  1007.950,     2.291893
  1008.000,     2.274188
  1008.050,     2.259814
  1008.100,     2.249494
  1008.150,     2.242164
  1008.200,     2.237834
  1008.250,     2.232760
  1008.300,     2.227017
  1008.350,     2.219779
  1008.400,     2.211952
  1008.450,     2.202514
  1008.500,     2.189384
  1008.550,     2.181398
  1008.600,     2.167402
  1008.650,     2.161058
  1008.700,     2.153279
  1008.750,     2.151432
  1008.800,     2.150089
  1008.850,     2.152313
  1008.900,     2.154740
  1008.950,     2.158965
  1009.000,     2.163936
  1009.050,     2.167265
  1009.100,     2.168846
  1009.150,     2.168283
  1009.200,     2.168916
  1009.250,     2.171633
  1009.300,     2.169235
  1009.350,     2.170777
  1009.400,     2.175260
  1009.450,     2.176806
  1009.500,     2.183803
  1009.550,     2.192582
  1009.600,     2.202534
  1009.650,     2.214965
  1009.700,     2.230663
  1009.750,     2.244671
  1009.800,     2.261169
  1009.850,     2.283703
  1009.900,     2.298263
  1009.950,     2.317335
  1010.000,     2.333094
  1010.050,     2.349924
  1010.100,     2.361144
  1010.150,     2.370819
  1010.200,     2.378053
  1010.250,     2.380376
  1010.300,     2.377762
  1010.350,     2.374311
  1010.400,     2.363420
  1010.450,     2.349842
  1010.500,     2.333750
  1010.550,     2.314442
  1010.600,     2.290737
  1010.650,     2.266955
  1010.700,     2.239738
  1010.750,     2.206493
  1010.800,     2.175555
  1010.850,     2.140006
  1010.900,     2.100193
  1010.950,     2.064242
  1011.000,     2.022839
  1011.050,     1.984691
  1011.100,     1.946388
  1011.150,     1.909857
  1011.200,     1.875853
  1011.250,     1.841742
  1011.300,     1.810073
  1011.350,     1.778904
  1011.400,     1.753851
  1011.450,     1.727551
  1011.500,     1.703716
  1011.550,     1.681031
  1011.600,     1.662028
  1011.650,     1.647931
  1011.700,     1.636824
  1011.750,     1.628112
  1011.800,     1.620468
  1011.850,     1.621495
  1011.900,     1.627703
  1011.950,     1.639141
  1012.000,     1.654229
  1012.050,     1.673477
  1012.100,     1.696164
  1012.150,     1.721094
  1012.200,     1.746372
  1012.250,     1.773964
  1012.300,     1.799639
  1012.350,     1.828341
  1012.400,     1.852533
  1012.450,     1.878952
  1012.500,     1.904497
  1012.550,     1.929228
  1012.600,     1.957248
  1012.650,     1.987127
  1012.700,     2.018599
  1012.750,     2.050013
  1012.800,     2.087068
  1012.850,     2.124945
  1012.900,     2.163951
  1012.950,     2.207882
  1013.000,     2.252761
  1013.050,     2.298549
  1013.100,     2.350401
  1013.150,     2.399124
  1013.200,     2.447441
  1013.250,     2.501991
  1013.300,     2.552331
  1013.350,     2.601435
  1013.400,     2.654461
  1013.450,     2.708212
  1013.500,     2.761003
  1013.550,     2.818406
  1013.600,     2.872606
  1013.650,     2.929827
  1013.700,     2.987532
  1013.750,     3.042910
  1013.800,     3.098993
  1013.850,     3.150354
  1013.900,     3.200612
  1013.950,     3.249341
  1014.000,     3.294296
  1014.050,     3.340314
  1014.100,     3.386741
  1014.150,     3.431446
  1014.200,     3.478034
  1014.250,     3.524348
  1014.300,     3.570502
  1014.350,     3.615422
  1014.400,     3.660454
  1014.450,     3.706810
  1014.500,     3.747554
  1014.550,     3.780560
  1014.600,     3.814791
  1014.650,     3.844314
  1014.700,     3.867129
  1014.750,     3.889053
  1014.800,     3.909236
  1014.850,     3.927939
  1014.900,     3.948671
  1014.950,     3.964674
  1015.000,     3.986776
  1015.050,     4.004299
  1015.100,     4.028476
  1015.150,     4.050467
  1015.200,     4.072442
  1015.250,     4.097022
  1015.300,     4.116813
  1015.350,     4.136254
  1015.400,     4.157849
  1015.450,     4.177147
  1015.500,     4.193603
  1015.550,     4.212723
  1015.600,     4.229767
  1015.650,     4.248671
  1015.700,     4.273041
  1015.750,     4.297879
  1015.800,     4.324725
  1015.850,     4.357346
  1015.900,     4.391125
  1015.950,     4.426447
  1016.000,     4.462323
  1016.050,     4.500901
  1016.100,     4.540654
  1016.150,     4.580514
  1016.200,     4.616957
  1016.250,     4.653552
  1016.300,     4.685042
  1016.350,     4.717750
  1016.400,     4.745367
  1016.450,     4.772878
  1016.500,     4.804088
  1016.550,     4.829824
  1016.600,     4.859609
  1016.650,     4.886189
  1016.700,     4.917005
  1016.750,     4.945906
  1016.800,     4.978836
  1016.850,     5.008080
  1016.900,     5.036854
  1016.950,     5.071383
  1017.000,     5.104596
  1017.050,     5.136743
  1017.100,     5.177727
  1017.150,     5.213273
  1017.200,     5.250142
  1017.250,     5.283730
  1017.300,     5.319891
  1017.350,     5.356012
  1017.400,     5.386668
  1017.450,     5.417273
  1017.500,     5.445523
  1017.550,     5.467621
  1017.600,     5.484104
  1017.650,     5.500722
  1017.700,     5.518296
  1017.750,     5.528033
  1017.800,     5.541050
  1017.850,     5.552440
  1017.900,     5.566418
  1017.950,     5.583082
  1018.000,     5.599656
  1018.050,     5.621153
  1018.100,     5.644374
  1018.150,     5.670419
  1018.200,     5.695250
  1018.250,     5.721665
  1018.300,     5.750656
  1018.350,     5.776422
  1018.400,     5.803343
  1018.450,     5.829176
  1018.500,     5.851840
  1018.550,     5.875106
  1018.600,     5.895528
  1018.650,     5.914719
  1018.700,     5.938814
  1018.750,     5.959687
  1018.800,     5.982957
  1018.850,     6.006267
  1018.900,     6.031058
  1018.950,     6.059111
  1019.000,     6.082607
  1019.050,     6.106349
  1019.100,     6.132741
  1019.150,     6.156408
  1019.200,     6.177201
  1019.250,     6.194420
  1019.300,     6.211620
  1019.350,     6.221067
  1019.400,     6.233306
  1019.450,     6.239524
  1019.500,     6.237673
  1019.550,     6.237520
  1019.600,     6.232748
  1019.650,     6.224085
  1019.700,     6.211539
  1019.750,     6.197152
  1019.800,     6.178323
  1019.850,     6.155412
  1019.900,     6.130537
  1019.950,     6.096187
  1020.000,     6.056938
  1020.050,     6.017839
  1020.100,     5.969409
  1020.150,     5.916222
  1020.200,     5.866034
  1020.250,     5.812249
  1020.300,     5.758131
  1020.350,     5.703790
  1020.400,     5.652030
  1020.450,     5.600305
  1020.500,     5.555639
  1020.550,     5.513481
  1020.600,     5.477577
  1020.650,     5.444884
  1020.700,     5.416981
  1020.750,     5.391815
  1020.800,     5.371682
  1020.850,     5.356633
  1020.900,     5.347184
  1020.950,     5.339674
  1021.000,     5.337829
  1021.050,     5.342221
  1021.100,     5.353160
  1021.150,     5.365754
  1021.200,     5.393379
  1021.250,     5.423109
  1021.300,     5.458248
  1021.350,     5.498151
  1021.400,     5.540622
  1021.450,     5.585189
  1021.500,     5.628949
  1021.550,     5.669122
  1021.600,     5.705635
  1021.650,     5.739332
  1021.700,     5.769462
  1021.750,     5.789883
  1021.800,     5.802410
  1021.850,     5.809681
  1021.900,     5.807323
  1021.950,     5.798898
  1022.000,     5.782084
  1022.050,     5.760423
  1022.100,     5.731311
  1022.150,     5.700201
  1022.200,     5.665828
  1022.250,     5.626657
  1022.300,     5.587422
  1022.350,     5.547185
  1022.400,     5.508835
  1022.450,     5.471356
  1022.500,     5.433498
  1022.550,     5.400541
  1022.600,     5.365758
  1022.650,     5.330985
  1022.700,     5.293452
  1022.750,     5.258743
  1022.800,     5.221284
  1022.850,     5.185505
  1022.900,     5.144826
  1022.950,     5.105221
  1023.000,     5.065940
  1023.050,     5.027928
  1023.100,     4.987180
  1023.150,     4.952683
  1023.200,     4.920522
  1023.250,     4.888890
  1023.300,     4.860644
  1023.350,     4.827447
  1023.400,     4.798109
  1023.450,     4.776653
  1023.500,     4.749923
  1023.550,     4.725652
  1023.600,     4.699716
  1023.650,     4.681521
  1023.700,     4.657801
  1023.750,     4.632551
  1023.800,     4.607999
  1023.850,     4.584900
  1023.900,     4.559475
  1023.950,     4.532972
  1024.000,     4.501740
  1024.050,     4.471565
  1024.100,     4.441847
  1024.150,     4.411850
  1024.200,     4.382458
  1024.250,     4.355271
  1024.300,     4.330440
  1024.350,     4.308880
  1024.400,     4.287842
  1024.450,     4.274464
  1024.500,     4.261858
  1024.550,     4.249077
  1024.600,     4.240459
  1024.650,     4.231095
  1024.700,     4.219913
  1024.750,     4.209047
  1024.800,     4.198324
  1024.850,     4.183894
  1024.900,     4.163909
  1024.950,     4.149839
  1025.000,     4.132108
  1025.050,     4.111786
  1025.100,     4.096189
  1025.150,     4.079012
  1025.200,     4.066347
  1025.250,     4.058500
  1025.300,     4.054504
  1025.350,     4.052274
  1025.400,     4.054355
  1025.450,     4.058034
  1025.500,     4.061294
  1025.550,     4.065801
  1025.600,     4.070483
  1025.650,     4.072006
  1025.700,     4.067355
  1025.750,     4.064088
  1025.800,     4.052550
  1025.850,     4.035681
  1025.900,     4.015389
  1025.950,     3.991079
  1026.000,     3.967523
  1026.050,     3.937100
  1026.100,     3.905198
  1026.150,     3.867520
  1026.200,     3.828444
  1026.250,     3.786758
  1026.300,     3.740561
  1026.350,     3.694946
  1026.400,     3.647432
  1026.450,     3.600202
  1026.500,     3.558169
  1026.550,     3.516016
  1026.600,     3.477744
  1026.650,     3.441181
  1026.700,     3.410422
  1026.750,     3.378768
  1026.800,     3.354996
  1026.850,     3.334902
  1026.900,     3.320833
  1026.950,     3.310533
  1027.000,     3.308114
  1027.050,     3.311625
  1027.100,     3.319877
  1027.150,     3.336883
  1027.200,     3.354300
  1027.250,     3.377659
  1027.300,     3.406295
  1027.350,     3.437364
  1027.400,     3.471293
  1027.450,     3.507763
  1027.500,     3.543391
  1027.550,     3.578974
  1027.600,     3.611498
  1027.650,     3.645402
  1027.700,     3.676944
  1027.750,     3.702110
  1027.800,     3.724365
  1027.850,     3.743205
  1027.900,     3.757726
  1027.950,     3.768055
  1028.000,     3.774236
  1028.050,     3.772749
  1028.100,     3.767753
  1028.150,     3.765787
  1028.200,     3.754275
  1028.250,     3.740300
  1028.300,     3.731370
  1028.350,     3.717682
  1028.400,     3.705720
  1028.450,     3.692262
  1028.500,     3.678156
  1028.550,     3.667340
  1028.600,     3.655300
  1028.650,     3.643115
  1028.700,     3.635352
  1028.750,     3.624129
  1028.800,     3.614987
  1028.850,     3.603052
  1028.900,     3.593124
  1028.950,     3.581248
  1029.000,     3.566466
  1029.050,     3.551278
  1029.100,     3.532245
  1029.150,     3.511704
  1029.200,     3.490089
  1029.250,     3.468703
  1029.300,     3.442656
  1029.350,     3.420067
  1029.400,     3.396587
  1029.450,     3.373714
  1029.500,     3.346413
  1029.550,     3.314477
  1029.600,     3.286304
  1029.650,     3.255103
  1029.700,     3.222715
  1029.750,     3.191772
  1029.800,     3.159491
  1029.850,     3.128691
  1029.900,     3.102049
  1029.950,     3.079059
  1030.000,     3.062133
  1030.050,     3.052526
  1030.100,     3.055043
  1030.150,     3.063757
  1030.200,     3.078399
  1030.250,     3.107488
  1030.300,     3.138774
  1030.350,     3.180889
  1030.400,     3.227430
  1030.450,     3.276453
  1030.500,     3.335110
  1030.550,     3.396981
  1030.600,     3.457116
  1030.650,     3.522297
  1030.700,     3.587569
  1030.750,     3.654208
  1030.800,     3.720234
  1030.850,     3.783268
  1030.900,     3.847647
  1030.950,     3.909283
  1031.000,     3.965827
  1031.050,     4.015976
  1031.100,     4.065549
  1031.150,     4.104373
  1031.200,     4.134883
  1031.250,     4.158651
  1031.300,     4.173995
  1031.350,     4.179891
  1031.400,     4.178640
  1031.450,     4.168043
  1031.500,     4.149144
  1031.550,     4.124186
  1031.600,     4.092594
  1031.650,     4.053869
  1031.700,     4.009385
  1031.750,     3.959713
  1031.800,     3.903397
  1031.850,     3.846042
  1031.900,     3.776424
  1031.950,     3.705975
  1032.000,     3.633540
  1032.050,     3.549580
  1032.100,     3.466068
  1032.150,     3.375836
  1032.200,     3.285128
  1032.250,     3.189870
  1032.300,     3.094836
  1032.350,     2.995698
  1032.400,     2.901271
  1032.450,     2.799911
  1032.500,     2.703772
  1032.550,     2.603462
  1032.600,     2.504255
  1032.650,     2.409537
  1032.700,     2.312546
  1032.750,     2.220589
  1032.800,     2.124043
  1032.850,     2.029549
  1032.900,     1.938808
  1032.950,     1.842977
  1033.000,     1.747700
  1033.050,     1.659075
  1033.100,     1.571603
  1033.150,     1.488102
  1033.200,     1.408442
  1033.250,     1.330774
  1033.300,     1.256714
  1033.350,     1.189132
  1033.400,     1.127493
  1033.450,     1.065299
  1033.500,     1.007278
  1033.550,     0.956551
  1033.600,     0.903060
  1033.650,     0.851895
  1033.700,     0.802587
  1033.750,     0.750538
  1033.800,     0.694691
  1033.850,     0.643347
  1033.900,     0.586664
  1033.950,     0.531151
  1034.000,     0.474035
  1034.050,     0.418545
  1034.100,     0.367698
  1034.150,     0.320374
  1034.200,     0.271992
  1034.250,     0.225704
  1034.300,     0.182602
  1034.350,     0.142988
  1034.400,     0.103499
  1034.450,     0.064273
  1034.500,     0.025057
  1034.550,    -0.011018
  1034.600,    -0.047060
  1034.650,    -0.084201
  1034.700,    -0.113755
  1034.750,    -0.138008
  1034.800,    -0.163232
  1034.850,    -0.178992
  1034.900,    -0.195781
  1034.950,    -0.205216
  1035.000,    -0.212642
  1035.050,    -0.217030
  1035.100,    -0.217968
  1035.150,    -0.212759
  1035.200,    -0.208978
  1035.250,    -0.199353
  1035.300,    -0.192910
  1035.350,    -0.180270
  1035.400,    -0.165937
  1035.450,    -0.150988
  1035.500,    -0.137746
  1035.550,    -0.122569
  1035.600,    -0.108212
  1035.650,    -0.092308
  1035.700,    -0.082271
  1035.750,    -0.078337
  1035.800,    -0.074074
  1035.850,    -0.073650
  1035.900,    -0.075671
  1035.950,    -0.084735
  1036.000,    -0.091804
  1036.050,    -0.101877
  1036.100,    -0.115656
  1036.150,    -0.130091
  1036.200,    -0.146727
  1036.250,    -0.164368
  1036.300,    -0.185513
  1036.350,    -0.210730
  1036.400,    -0.234884
  1036.450,    -0.260461
  1036.500,    -0.292073
  1036.550,    -0.321434
  1036.600,    -0.350726
  1036.650,    -0.378807
  1036.700,    -0.408342
  1036.750,    -0.434539
  1036.800,    -0.455793
  1036.850,    -0.475672
  1036.900,    -0.493180
  1036.950,    -0.509798
  1037.000,    -0.524173
  1037.050,    -0.534660
  1037.100,    -0.542971
  1037.150,    -0.552943
  1037.200,    -0.561435
  1037.250,    -0.563618
  1037.300,    -0.568967
  1037.350,    -0.576304
  1037.400,    -0.576760
  1037.450,    -0.582683
  1037.500,    -0.586717
  1037.550,    -0.588030
  1037.600,    -0.585531
  1037.650,    -0.580262
  1037.700,    -0.575624
  1037.750,    -0.570404
  1037.800,    -0.561114
  1037.850,    -0.550050
  1037.900,    -0.536398
  1037.950,    -0.523200
  1038.000,    -0.509863
  1038.050,    -0.489930
  1038.100,    -0.471546
  1038.150,    -0.452324
  1038.200,    -0.432095
  1038.250,    -0.409057
  1038.300,    -0.385085
  1038.350,    -0.360542
  1038.400,    -0.337924
  1038.450,    -0.313060
  1038.500,    -0.289776
  1038.550,    -0.269888
  1038.600,    -0.251596
  1038.650,    -0.237288
  1038.700,    -0.222336
  1038.750,    -0.210987
  1038.800,    -0.201645
  1038.850,    -0.191824
  1038.900,    -0.183754
  1038.950,    -0.175167
  1039.000,    -0.164765
  1039.050,    -0.154231
  1039.100,    -0.141648
  1039.150,    -0.129037
  1039.200,    -0.114756
  1039.250,    -0.097507
  1039.300,    -0.082394
  1039.350,    -0.066712
  1039.400,    -0.046040
  1039.450,    -0.026138
  1039.500,    -0.000915
  1039.550,     0.026807
  1039.600,     0.055447
  1039.650,     0.090126
  1039.700,     0.125216
  1039.750,     0.168656
  1039.800,     0.211661
  1039.850,     0.259414
  1039.900,     0.309356
  1039.950,     0.362194
  1040.000,     0.416511
  1040.050,     0.474319
  1040.100,     0.541741
  1040.150,     0.607257
  1040.200,     0.680416
  1040.250,     0.754962
  1040.300,     0.833012
  1040.350,     0.916667
  1040.400,     1.000918
  1040.450,     1.085762
  1040.500,     1.173286
  1040.550,     1.258809
  1040.600,     1.343516
  1040.650,     1.425428
  1040.700,     1.507675
  1040.750,     1.587377
  1040.800,     1.667670
  1040.850,     1.747405
  1040.900,     1.826154
  1040.950,     1.912040
  1041.000,     1.988429
  1041.050,     2.065373
  1041.100,     2.143003
  1041.150,     2.214715
  1041.200,     2.280977
  1041.250,     2.342700
  1041.300,     2.402099
  1041.350,     2.451397
  1041.400,     2.493356
  1041.450,     2.526970
  1041.500,     2.557014
  1041.550,     2.580226
  1041.600,     2.591884
  1041.650,     2.598334
  1041.700,     2.601996
  1041.750,     2.595721
  1041.800,     2.585198
  1041.850,     2.575835
  1041.900,     2.561689
  1041.950,     2.540523
  1042.000,     2.521881
  1042.050,     2.498920
  1042.100,     2.475298
  1042.150,     2.453838
  1042.200,     2.433000
  1042.250,     2.409431
  1042.300,     2.390444
  1042.350,     2.366035
  1042.400,     2.342508
  1042.450,     2.322073
  1042.500,     2.296338
  1042.550,     2.264670
  1042.600,     2.232421
  1042.650,     2.197170
  1042.700,     2.161100
  1042.750,     2.123355
  1042.800,     2.082922
  1042.850,     2.047560
  1042.900,     2.009722
  1042.950,     1.976766
  1043.000,     1.942928
  1043.050,     1.911660
  1043.100,     1.880913
  1043.150,     1.846860
  1043.200,     1.810015
  1043.250,     1.776805
  1043.300,     1.739984
  1043.350,     1.700615
  1043.400,     1.661747
  1043.450,     1.620358
  1043.500,     1.581253
  1043.550,     1.541748
  1043.600,     1.503810
  1043.650,     1.471217
  1043.700,     1.440137
  1043.750,     1.414383
  1043.800,     1.389665
  1043.850,     1.370400
  1043.900,     1.358084
  1043.950,     1.347415
  1044.000,     1.338813
  1044.050,     1.339346
  1044.100,     1.342470
  1044.150,     1.349791
  1044.200,     1.359326
  1044.250,     1.375058
  1044.300,     1.392301
  1044.350,     1.411148
  1044.400,     1.430651
  1044.450,     1.453390
  1044.500,     1.477675
  1044.550,     1.500627
  1044.600,     1.525966
  1044.650,     1.552773
  1044.700,     1.579894
  1044.750,     1.607867
  1044.800,     1.640797
  1044.850,     1.673377
  1044.900,     1.713599
  1044.950,     1.757330
  1045.000,     1.804385
  1045.050,     1.855677
  1045.100,     1.909825
  1045.150,     1.963959
  1045.200,     2.021133
  1045.250,     2.075809
  1045.300,     2.130237
  1045.350,     2.183221
  1045.400,     2.231769
  1045.450,     2.279088
  1045.500,     2.323983
  1045.550,     2.368745
  1045.600,     2.406158
  1045.650,     2.439187
  1045.700,     2.472218
  1045.750,     2.501497
  1045.800,     2.527929
  1045.850,     2.552632
  1045.900,     2.576561
  1045.950,     2.597513
  1046.000,     2.614047
  1046.050,     2.630347
  1046.100,     2.647249
  1046.150,     2.665365
  1046.200,     2.677750
  1046.250,     2.689722
  1046.300,     2.702870
  1046.350,     2.715560
  1046.400,     2.728114
  1046.450,     2.741072
  1046.500,     2.753811
  1046.550,     2.769376
  1046.600,     2.783740
  1046.650,     2.800522
  1046.700,     2.820370
  1046.750,     2.837919
  1046.800,     2.857919
  1046.850,     2.878718
  1046.900,     2.904284
  1046.950,     2.929839
  1047.000,     2.959983
  1047.050,     2.991053
  1047.100,     3.024125
  1047.150,     3.063660
  1047.200,     3.097968
  1047.250,     3.136575
  1047.300,     3.172508
  1047.350,     3.210044
  1047.400,     3.245289
  1047.450,     3.278079
  1047.500,     3.306998
  1047.550,     3.334457
  1047.600,     3.355526
  1047.650,     3.376049
  1047.700,     3.388170
  1047.750,     3.402533
  1047.800,     3.410582
  1047.850,     3.418965
  1047.900,     3.427438
  1047.950,     3.433798
  1048.000,     3.437639
  1048.050,     3.437188
  1048.100,     3.430671
  1048.150,     3.422073
  1048.200,     3.408129
  1048.250,     3.388697
  1048.300,     3.370409
  1048.350,     3.349412
  1048.400,     3.331936
  1048.450,     3.316230
  1048.500,     3.297229
  1048.550,     3.283498
  1048.600,     3.273782
  1048.650,     3.264012
  1048.700,     3.253698
  1048.750,     3.253605
  1048.800,     3.252012
  1048.850,     3.252566
  1048.900,     3.260484
  1048.950,     3.269196
  1049.000,     3.281608
  1049.050,     3.298684
  1049.100,     3.322147
  1049.150,     3.349409
  1049.200,     3.379221
  1049.250,     3.416620
  1049.300,     3.460622
  1049.350,     3.505081
  1049.400,     3.556028
  1049.450,     3.605504
  1049.500,     3.656227
  1049.550,     3.709465
  1049.600,     3.767227
  1049.650,     3.820543
  1049.700,     3.870703
  1049.750,     3.925383
  1049.800,     3.978519
  1049.850,     4.030487
  1049.900,     4.078132
  1049.950,     4.121193
  1050.000,     4.166120
  1050.050,     4.199989
  1050.100,     4.236775
  1050.150,     4.266509
  1050.200,     4.290562
  1050.250,     4.312935
  1050.300,     4.335976
  1050.350,     4.360446
  1050.400,     4.386862
  1050.450,     4.412425
  1050.500,     4.443498
  1050.550,     4.478584
  1050.600,     4.513539
  1050.650,     4.555296
  1050.700,     4.597864
  1050.750,     4.638509
  1050.800,     4.683618
  1050.850,     4.727743
  1050.900,     4.771854
  1050.950,     4.821897
  1051.000,     4.868043
  1051.050,     4.918436
  1051.100,     4.969945
  1051.150,     5.021914
  1051.200,     5.076368
  1051.250,     5.131331
  1051.300,     5.186063
  1051.350,     5.243331
  1051.400,     5.298612
  1051.450,     5.354016
  1051.500,     5.407024
  1051.550,     5.464929
  1051.600,     5.520676
  1051.650,     5.580481
  1051.700,     5.642162
  1051.750,     5.708275
  1051.800,     5.772317
  1051.850,     5.841221
  1051.900,     5.915019
  1051.950,     5.989335
  1052.000,     6.066569
  1052.050,     6.146540
  1052.100,     6.224827
  1052.150,     6.298467
  1052.200,     6.375630
  1052.250,     6.451750
  1052.300,     6.522741
  1052.350,     6.588095
  1052.400,     6.654316
  1052.450,     6.717082
  1052.500,     6.777505
  1052.550,     6.835549
  1052.600,     6.893936
  1052.650,     6.951732
  1052.700,     7.009625
  1052.750,     7.068347
  1052.800,     7.128906
  1052.850,     7.188621
  1052.900,     7.253778
  1052.950,     7.317816
  1053.000,     7.382563
  1053.050,     7.448778
  1053.100,     7.515070
  1053.150,     7.580374
  1053.200,     7.643092
  1053.250,     7.702981
  1053.300,     7.761843
  1053.350,     7.812515
  1053.400,     7.864022
  1053.450,     7.909477
  1053.500,     7.950842
  1053.550,     7.985705
  1053.600,     8.024221
  1053.650,     8.058331
  1053.700,     8.087109
  1053.750,     8.115482
  1053.800,     8.144944
  1053.850,     8.175185
  1053.900,     8.201322
  1053.950,     8.229830
  1054.000,     8.256897
  1054.050,     8.285513
  1054.100,     8.309730
  1054.150,     8.333998
  1054.200,     8.354785
  1054.250,     8.370408
  1054.300,     8.383119
  1054.350,     8.385159
  1054.400,     8.387637
  1054.450,     8.378337
  1054.500,     8.363675
  1054.550,     8.352482
  1054.600,     8.335265
  1054.650,     8.313272
  1054.700,     8.292125
  1054.750,     8.272658
  1054.800,     8.253112
  1054.850,     8.237273
  1054.900,     8.220989
  1054.950,     8.211374
  1055.000,     8.201755
  1055.050,     8.197044
  1055.100,     8.197049
  1055.150,     8.198297
  1055.200,     8.208889
  1055.250,     8.225210
  1055.300,     8.240436
  1055.350,     8.262521
  1055.400,     8.293671
  1055.450,     8.325245
  1055.500,     8.361732
  1055.550,     8.400449
  1055.600,     8.446828
  1055.650,     8.490820
  1055.700,     8.539286
  1055.750,     8.588898
  1055.800,     8.640047
  1055.850,     8.691427
  1055.900,     8.733336
  1055.950,     8.777746
  1056.000,     8.815069
  1056.050,     8.849880
  1056.100,     8.874320
  1056.150,     8.896001
  1056.200,     8.914297
  1056.250,     8.932904
  1056.300,     8.945154
  1056.350,     8.957762
  1056.400,     8.969068
  1056.450,     8.980445
  1056.500,     8.992998
  1056.550,     9.002680
  1056.600,     9.018858
  1056.650,     9.029944
  1056.700,     9.042266
  1056.750,     9.050487
  1056.800,     9.056642
  1056.850,     9.057882
  1056.900,     9.050743
  1056.950,     9.044144
  1057.000,     9.031146
  1057.050,     9.012827
  1057.100,     8.992851
  1057.150,     8.968136
  1057.200,     8.941094
  1057.250,     8.911094
  1057.300,     8.879768
  1057.350,     8.844358
  1057.400,     8.813176
  1057.450,     8.778133
  1057.500,     8.745646
  1057.550,     8.716304
  1057.600,     8.685333
  1057.650,     8.650820
  1057.700,     8.619465
  1057.750,     8.584423
  1057.800,     8.544039
  1057.850,     8.501079
  1057.900,     8.458318
  1057.950,     8.411756
  1058.000,     8.359635
  1058.050,     8.306014
  1058.100,     8.251903
  1058.150,     8.194981
  1058.200,     8.136936
  1058.250,     8.083651
  1058.300,     8.028192
  1058.350,     7.975275
  1058.400,     7.920657
  1058.450,     7.868890
  1058.500,     7.816980
  1058.550,     7.764138
  1058.600,     7.710109
  1058.650,     7.656243
  1058.700,     7.603656
  1058.750,     7.549166
  1058.800,     7.498590
  1058.850,     7.450612
  1058.900,     7.402803
  1058.950,     7.362629
  1059.000,     7.321615
  1059.050,     7.284521
  1059.100,     7.252041
  1059.150,     7.219072
  1059.200,     7.190266
  1059.250,     7.158761
  1059.300,     7.133310
  1059.350,     7.103437
  1059.400,     7.080925
  1059.450,     7.058601
  1059.500,     7.033714
  1059.550,     7.018733
  1059.600,     7.000785
  1059.650,     6.986893
  1059.700,     6.979554
  1059.750,     6.972874
  1059.800,     6.968849
  1059.850,     6.969039
  1059.900,     6.972138
  1059.950,     6.978236
  1060.000,     6.985618
  1060.050,     6.990435
  1060.100,     6.992449
  1060.150,     6.999066
  1060.200,     7.002277
  1060.250,     7.004345
  1060.300,     7.007973
  1060.350,     7.010055
  1060.400,     7.013744
  1060.450,     7.020527
  1060.500,     7.027983
  1060.550,     7.036263
  1060.600,     7.047554
  1060.650,     7.052615
  1060.700,     7.067089
  1060.750,     7.072006
  1060.800,     7.081542
  1060.850,     7.085578
  1060.900,     7.090356
  1060.950,     7.095360
  1061.000,     7.098823
  1061.050,     7.100102
  1061.100,     7.098314
  1061.150,     7.092204
  1061.200,     7.090321
  1061.250,     7.078336
  1061.300,     7.061417
  1061.350,     7.044174
  1061.400,     7.026135
  1061.450,     7.000781
  1061.500,     6.978910
  1061.550,     6.954156
  1061.600,     6.926080
  1061.650,     6.898689
  1061.700,     6.867132
  1061.750,     6.833086
  1061.800,     6.802981
  1061.850,     6.768338
  1061.900,     6.738316
  1061.950,     6.708567
  1062.000,     6.683453
  1062.050,     6.658711
  1062.100,     6.637447
  1062.150,     6.619722
  1062.200,     6.606003
  1062.250,     6.598161
  1062.300,     6.590913
  1062.350,     6.588321
  1062.400,     6.585591
  1062.450,     6.586096
  1062.500,     6.590686
  1062.550,     6.595406
  1062.600,     6.603122
  1062.650,     6.614461
  1062.700,     6.628320
  1062.750,     6.641348
  1062.800,     6.660084
  1062.850,     6.678873
  1062.900,     6.699356
  1062.950,     6.718077
  1063.000,     6.734791
  1063.050,     6.752012
  1063.100,     6.764139
  1063.150,     6.772358
  1063.200,     6.780301
  1063.250,     6.783354
  1063.300,     6.784647
  1063.350,     6.781203
  1063.400,     6.778039
  1063.450,     6.774460
  1063.500,     6.768157
  1063.550,     6.766417
  1063.600,     6.762301
  1063.650,     6.756680
  1063.700,     6.755429
  1063.750,     6.756482
  1063.800,     6.757426
  1063.850,     6.762222
  1063.900,     6.772930
  1063.950,     6.779891
  1064.000,     6.792686
  1064.050,     6.807652
  1064.100,     6.825566
  1064.150,     6.846222
  1064.200,     6.869006
  1064.250,     6.895021
  1064.300,     6.924345
  1064.350,     6.955259
  1064.400,     6.993155
  1064.450,     7.030165
  1064.500,     7.072244
  1064.550,     7.121430
  1064.600,     7.165593
  1064.650,     7.217085
  1064.700,     7.271987
  1064.750,     7.320763
  1064.800,     7.378230
  1064.850,     7.428368
  1064.900,     7.479456
  1064.950,     7.530402
  1065.000,     7.579406
  1065.050,     7.628649
  1065.100,     7.677946
  1065.150,     7.729659
  1065.200,     7.780312
  1065.250,     7.836454
  1065.300,     7.892319
  1065.350,     7.949764
  1065.400,     8.007228
  1065.450,     8.064725
  1065.500,     8.118595
  1065.550,     8.164843
  1065.600,     8.207351
  1065.650,     8.243150
  1065.700,     8.268724
  1065.750,     8.290450
  1065.800,     8.300464
  1065.850,     8.306296
  1065.900,     8.302719
  1065.950,     8.297646
  1066.000,     8.286888
  1066.050,     8.275842
  1066.100,     8.262334
  1066.150,     8.250057
  1066.200,     8.240120
  1066.250,     8.230107
  1066.300,     8.223962
  1066.350,     8.212832
  1066.400,     8.205030
  1066.450,     8.191085
  1066.500,     8.175534
  1066.550,     8.155193
  1066.600,     8.131944
  1066.650,     8.105394
  1066.700,     8.079307
  1066.750,     8.053072
  1066.800,     8.027700
  1066.850,     8.007877
  1066.900,     7.990189
  1066.950,     7.977939
  1067.000,     7.970397
  1067.050,     7.961141
  1067.100,     7.955026
  1067.150,     7.947360
  1067.200,     7.938151
  1067.250,     7.926701
  1067.300,     7.911453
  1067.350,     7.888926
  1067.400,     7.871552
  1067.450,     7.846824
  1067.500,     7.822252
  1067.550,     7.797489
  1067.600,     7.766185
  1067.650,     7.742907
  1067.700,     7.711305
  1067.750,     7.680629
  1067.800,     7.648503
  1067.850,     7.611603
  1067.900,     7.573787
  1067.950,     7.535527
  1068.000,     7.489255
  1068.050,     7.443374
  1068.100,     7.395847
  1068.150,     7.350122
  1068.200,     7.301308
  1068.250,     7.252954
  1068.300,     7.201239
  1068.350,     7.151498
  1068.400,     7.104451
  1068.450,     7.053755
  1068.500,     7.004986
  1068.550,     6.953851
  1068.600,     6.905586
  1068.650,     6.857126
  1068.700,     6.804929
  1068.750,     6.759364
  1068.800,     6.707042
  1068.850,     6.658797
  1068.900,     6.605771
  1068.950,     6.560031
  1069.000,     6.508993
  1069.050,     6.467976
  1069.100,     6.419747
  1069.150,     6.377622
  1069.200,     6.334581
  1069.250,     6.296854
  1069.300,     6.260463
  1069.350,     6.223779
  1069.400,     6.188617
  1069.450,     6.151033
  1069.500,     6.115029
  1069.550,     6.075730
  1069.600,     6.042714
  1069.650,     6.001802
  1069.700,     5.964817
  1069.750,     5.921373
  1069.800,     5.884653
  1069.850,     5.843894
  1069.900,     5.806738
  1069.950,     5.766628
  1070.000,     5.728009
